BlockNumber,TrialType,FileName,Xcoord,Ycoord,BlockLoop.thisRepN,BlockLoop.thisTrialN,BlockLoop.thisN,BlockLoop.thisIndex,TrialLoop.thisRepN,TrialLoop.thisTrialN,TrialLoop.thisN,TrialLoop.thisIndex,key_resp_cross.keys,key_resp_cross.rt,text_cross_space.started,text_cross_space.stopped,id_participant,age,handedness,gender,Xpos,Ypos,ClickInTime,find_target.x,find_target.y,find_target.leftButton,find_target.midButton,find_target.rightButton,find_target.time,find_target.clicked_name,participant,age,handedness,gender,date,expName,psychopyVersion,frameRate,
1,new,Kitchen_4,0.1632947635223172,0.2857513099983214,0,0,0,0,0,0,0,12,space,1.8596512909934972,83.5785512500006,None,3,23,right,female,0.1632947635223172,0.2857513099983214,1,0.1688888888888889,0.2788888888888889,1,0,0,7.002819667002768,stimulus,3,23,right,female,2022_Sep_20_1225,exp_builder_script,2021.2.3,59.93098958363188,
1,mirrored,Bathroom_10,-0.3502743569014685,0.3798328685450328,0,0,0,0,0,1,1,1,space,1.37340695799503,92.97474166699976,None,3,23,right,female,-0.3502743569014685,0.3798328685450328,1,-0.34555555555555556,0.37555555555555553,1,0,0,2.654920334003691,stimulus,3,23,right,female,2022_Sep_20_1225,exp_builder_script,2021.2.3,59.93098958363188,
1,new,Bedroom_10,-0.5072629001566733,-0.014204148618675028,0,0,0,0,0,2,2,14,space,0.6494862910039956,97.47453979199781,None,3,23,right,female,-0.5072629001566733,-0.014204148618675028,1,-0.5044444444444445,-0.013333333333333334,1,0,0,4.555143792000308,stimulus,3,23,right,female,2022_Sep_20_1225,exp_builder_script,2021.2.3,59.93098958363188,
1,new,Kitchen_1,0.34342691366607064,0.30589526172118686,0,0,0,0,0,3,3,11,space,0.9363970830017934,103.14161687500018,None,3,23,right,female,0.34342691366607064,0.30589526172118686,1,0.3466666666666667,0.30333333333333334,1,0,0,2.2349847500008764,stimulus,3,23,right,female,2022_Sep_20_1225,exp_builder_script,2021.2.3,59.93098958363188,
1,mirrored,Bathroom_2,0.20329417316030823,0.3077753718311152,0,0,0,0,0,4,4,4,space,0.5032897490018513,106.74183449999691,None,3,23,right,female,0.20329417316030823,0.3077753718311152,1,0.20666666666666667,0.32222222222222224,1,0,0,2.907961749995593,stimulus,3,23,right,female,2022_Sep_20_1225,exp_builder_script,2021.2.3,59.93098958363188,
1,mirrored,Bedroom_5,0.0448591774405982,-0.28355325865388037,0,0,0,0,0,5,5,9,space,0.42789583199919434,110.59130875000119,None,3,23,right,female,0.0448591774405982,-0.28355325865388037,1,0.03666666666666667,-0.2688888888888889,1,0,0,3.0188571249964298,stimulus,3,23,right,female,2022_Sep_20_1225,exp_builder_script,2021.2.3,59.93098958363188,
1,new,Office_1,0.40098704400412216,-0.0009067281813785466,0,0,0,0,0,6,6,17,space,0.5134618329975638,114.47561483299796,None,3,23,right,female,0.40098704400412216,-0.0009067281813785466,1,0.40555555555555556,0.005555555555555556,1,0,0,10.960432208004931,stimulus,3,23,right,female,2022_Sep_20_1225,exp_builder_script,2021.2.3,59.93098958363188,
1,mirrored,Kitchen_8,0.29549651979099967,-0.16262548483650754,0,0,0,0,0,7,7,7,space,0.6329877070020302,126.37492645799648,None,3,23,right,female,0.29549651979099967,-0.16262548483650754,0,,,,,,,,3,23,right,female,2022_Sep_20_1225,exp_builder_script,2021.2.3,59.93098958363188,
1,original,Bathroom_6,-0.12805113141993518,0.24277517045516525,0,0,0,0,0,8,8,20,space,0.6977979160001269,142.04199854200124,None,3,23,right,female,-0.12805113141993518,0.24277517045516525,1,-0.12555555555555556,0.24555555555555555,1,0,0,1.412626208999427,stimulus,3,23,right,female,2022_Sep_20_1225,exp_builder_script,2021.2.3,59.93098958363188,
1,new,Office_4,-0.3876491098010492,-0.3709300906739321,0,0,0,0,0,9,9,13,space,0.3921165820065653,144.5928700000004,None,3,23,right,female,-0.3876491098010492,-0.3709300906739321,1,-0.38555555555555554,-0.36333333333333334,1,0,0,4.337304749999021,stimulus,3,23,right,female,2022_Sep_20_1225,exp_builder_script,2021.2.3,59.93098958363188,
1,mirrored,Office_2,0.08443178945114249,-0.38764351522097584,0,0,0,0,0,10,10,8,space,0.5962595410019276,149.75953695800126,None,3,23,right,female,0.08443178945114249,-0.38764351522097584,1,0.07777777777777778,-0.4,1,0,0,1.971588000000338,stimulus,3,23,right,female,2022_Sep_20_1225,exp_builder_script,2021.2.3,59.93098958363188,
1,mirrored,Kitchen_3,-0.1047274458262859,0.19410707714476494,0,0,0,0,0,11,11,0,space,0.5780436239947448,152.75899604200094,None,3,23,right,female,-0.1047274458262859,0.19410707714476494,1,-0.10666666666666667,0.19333333333333333,1,0,0,3.0107295409979997,stimulus,3,23,right,female,2022_Sep_20_1225,exp_builder_script,2021.2.3,59.93098958363188,
1,new,Office_7,0.49260733318452327,-0.009319561851003522,0,0,0,0,0,12,12,19,space,0.38606016599806026,156.75960645799933,None,3,23,right,female,0.49260733318452327,-0.009319561851003522,0,,,,,,,,3,23,right,female,2022_Sep_20_1225,exp_builder_script,2021.2.3,59.93098958363188,
1,original,Office_5,-0.5051282258185819,-0.0257907987093709,0,0,0,0,0,13,13,23,space,0.6992310409987113,172.19328095799574,None,3,23,right,female,-0.5051282258185819,-0.0257907987093709,1,-0.5044444444444445,-0.017777777777777778,1,0,0,1.714667708001798,stimulus,3,23,right,female,2022_Sep_20_1225,exp_builder_script,2021.2.3,59.93098958363188,
1,new,Bedroom_6,0.3605232281126099,0.3357879082202965,0,0,0,0,0,14,14,10,space,0.5524917080037994,175.06001537499833,None,3,23,right,female,0.3605232281126099,0.3357879082202965,1,0.36,0.3388888888888889,1,0,0,2.4459473750030156,stimulus,3,23,right,female,2022_Sep_20_1225,exp_builder_script,2021.2.3,59.93098958363188,
1,original,Bedroom_8,-0.11896269317312846,-0.3982431404896644,0,0,0,0,0,15,15,25,space,0.8669772490029573,178.49346499999956,None,3,23,right,female,-0.11896269317312846,-0.3982431404896644,0,,,,,,,,3,23,right,female,2022_Sep_20_1225,exp_builder_script,2021.2.3,59.93098958363188,
1,new,Kitchen_2,-0.6927484988110232,-0.06954418198323775,0,0,0,0,0,16,16,15,space,0.9340478740050457,194.41020295799535,None,3,23,right,female,-0.6927484988110232,-0.06954418198323775,1,-0.7033333333333334,-0.07444444444444444,1,0,0,1.8297672499975306,stimulus,3,23,right,female,2022_Sep_20_1225,exp_builder_script,2021.2.3,59.93098958363188,
1,original,Kitchen_5,0.03100582486719361,0.3921155701010332,0,0,0,0,0,17,17,21,space,0.45876383300492307,197.64376600000105,None,3,23,right,female,0.03100582486719361,0.3921155701010332,1,0.03111111111111111,0.39555555555555555,1,0,0,9.012391709002259,stimulus,3,23,right,female,2022_Sep_20_1225,exp_builder_script,2021.2.3,59.93098958363188,
1,mirrored,Bathroom_1,-0.574962803462562,-0.2305264760510578,0,0,0,0,0,18,18,5,space,0.5227329580011428,207.52747545799502,None,3,23,right,female,-0.574962803462562,-0.2305264760510578,1,-0.5788888888888889,-0.22,1,0,0,5.0987288749965956,stimulus,3,23,right,female,2022_Sep_20_1225,exp_builder_script,2021.2.3,59.93098958363188,
1,original,Bedroom_2,0.19213186318918218,-0.21336005812507086,0,0,0,0,0,19,19,28,space,0.363866790998145,213.56030637499498,None,3,23,right,female,0.19213186318918218,-0.21336005812507086,1,0.19333333333333333,-0.20333333333333334,1,0,0,0.9614867919954122,stimulus,3,23,right,female,2022_Sep_20_1225,exp_builder_script,2021.2.3,59.93098958363188,
1,mirrored,Bedroom_4,0.3563961529996227,0.22685701520183518,0,0,0,0,0,20,20,2,space,0.34750933200120926,215.29364829199767,None,3,23,right,female,0.3563961529996227,0.22685701520183518,0,,,,,,,,3,23,right,female,2022_Sep_20_1225,exp_builder_script,2021.2.3,59.93098958363188,
1,mirrored,Bathroom_9,0.48529819647490463,0.16472496867031353,0,0,0,0,0,21,21,3,space,0.6639333749990328,230.67807270799676,None,3,23,right,female,0.48529819647490463,0.16472496867031353,1,0.48777777777777775,0.17222222222222222,1,0,0,1.8298494999980903,stimulus,3,23,right,female,2022_Sep_20_1225,exp_builder_script,2021.2.3,59.93098958363188,
1,new,Bathroom_7,0.3016613585595412,-0.08832794342241002,0,0,0,0,0,22,22,18,space,0.44193245800124714,233.57822524999938,None,3,23,right,female,0.3016613585595412,-0.08832794342241002,1,0.3055555555555556,-0.08555555555555555,1,0,0,1.65080866599601,stimulus,3,23,right,female,2022_Sep_20_1225,exp_builder_script,2021.2.3,59.93098958363188,
1,original,Bedroom_7,0.6715879372012181,-0.12458988911738106,0,0,0,0,0,23,23,29,space,0.30171437399985734,236.11106162500073,None,3,23,right,female,0.6715879372012181,-0.12458988911738106,1,0.67,-0.13,1,0,0,4.044138874996861,stimulus,3,23,right,female,2022_Sep_20_1225,exp_builder_script,2021.2.3,59.93098958363188,
1,original,Bedroom_3,-0.2985648792649779,-0.39694942359026175,0,0,0,0,0,24,24,22,space,0.30438316599611426,240.893435375001,None,3,23,right,female,-0.2985648792649779,-0.39694942359026175,0,,,,,,,,3,23,right,female,2022_Sep_20_1225,exp_builder_script,2021.2.3,59.93098958363188,
1,original,Bathroom_4,-0.4226860729393267,-0.09634423121097424,0,0,0,0,0,25,25,27,space,0.6175265830024728,256.22801691699715,None,3,23,right,female,-0.4226860729393267,-0.09634423121097424,1,-0.42777777777777776,-0.09555555555555556,1,0,0,9.204752500001632,stimulus,3,23,right,female,2022_Sep_20_1225,exp_builder_script,2021.2.3,59.93098958363188,
1,mirrored,Kitchen_9,0.5359790132884469,-0.3876633268990265,0,0,0,0,0,26,26,6,space,0.39365279100456974,266.4952130419988,None,3,23,right,female,0.5359790132884469,-0.3876633268990265,1,0.5411111111111111,-0.37555555555555553,1,0,0,3.048519167001359,stimulus,3,23,right,female,2022_Sep_20_1225,exp_builder_script,2021.2.3,59.93098958363188,
1,original,Bedroom_9,-0.49309269990129767,-0.175264552890327,0,0,0,0,0,27,27,24,space,0.4936895829960122,270.3790800419956,None,3,23,right,female,-0.49309269990129767,-0.175264552890327,0,,,,,,,,3,23,right,female,2022_Sep_20_1225,exp_builder_script,2021.2.3,59.93098958363188,
1,new,Kitchen_6,0.4704916161487298,-0.0606013153578831,0,0,0,0,0,28,28,16,space,1.0328222080061096,285.91245837500173,None,3,23,right,female,0.4704916161487298,-0.0606013153578831,1,0.47333333333333333,-0.057777777777777775,1,0,0,6.6937727499971515,stimulus,3,23,right,female,2022_Sep_20_1225,exp_builder_script,2021.2.3,59.93098958363188,
1,original,Office_8,-0.518317530311222,-0.37259024528088763,0,0,0,0,0,29,29,26,space,0.2354134580018581,294.0957395000005,None,3,23,right,female,-0.518317530311222,-0.37259024528088763,1,-0.5288888888888889,-0.37,1,0,0,4.115867582993815,stimulus,3,23,right,female,2022_Sep_20_1225,exp_builder_script,2021.2.3,59.93098958363188,
1,,,,,0,0,0,0,,,,,,,,,,23,right,female,,,,,,,,,,,3,23,right,female,2022_Sep_20_1225,exp_builder_script,2021.2.3,59.93098958363188,
2,mirrored,Kitchen_8,0.29549651979099967,-0.16262548483650754,0,1,1,1,0,0,0,7,space,5.023846583004342,299.3137394169971,None,3,23,right,female,-0.29549651979099967,-0.16262548483650754,0,,,,,,,,3,23,right,female,2022_Sep_20_1225,exp_builder_script,2021.2.3,59.93098958363188,
2,original,Bedroom_8,-0.11896269317312846,-0.3982431404896644,0,1,1,1,0,1,1,25,space,0.6266487909961143,319.3800129579977,None,3,23,right,female,-0.11896269317312846,-0.3982431404896644,0,,,,,,,,3,23,right,female,2022_Sep_20_1225,exp_builder_script,2021.2.3,59.93098958363188,
2,new,Bathroom_3,-0.5349126842085921,0.3358063378142108,0,1,1,1,0,2,2,12,space,0.7212739569949917,335.0468142499958,None,3,23,right,female,-0.5349126842085921,0.3358063378142108,1,-0.53,0.3411111111111111,1,0,0,1.675816290997318,stimulus,3,23,right,female,2022_Sep_20_1225,exp_builder_script,2021.2.3,59.93098958363188,
2,None,None,None,None,0,1,1,1,0,3,3,31,space,0.5601558330017724,337.8803592499971,None,3,23,right,female,None,None,1,,,,,,,,3,23,right,female,2022_Sep_20_1225,exp_builder_script,2021.2.3,59.93098958363188,
2,None,None,None,None,0,1,1,1,0,4,4,32,space,2.0777176240007975,338.8644635829987,None,3,23,right,female,None,None,1,,,,,,,,3,23,right,female,2022_Sep_20_1225,exp_builder_script,2021.2.3,59.93098958363188,
2,original,Bedroom_3,-0.2985648792649779,-0.39694942359026175,0,1,1,1,0,5,5,22,space,1.7096530830021948,341.3754243750009,None,3,23,right,female,-0.2985648792649779,-0.39694942359026175,0,,,,,,,,3,23,right,female,2022_Sep_20_1225,exp_builder_script,2021.2.3,59.93098958363188,
2,new,Office_6,-0.22294167319472424,0.3642044776334449,0,1,1,1,0,6,6,13,space,0.6382964160002302,358.1306652919957,None,3,23,right,female,-0.22294167319472424,0.3642044776334449,1,-0.21777777777777776,0.3688888888888889,1,0,0,2.8055681670011836,stimulus,3,23,right,female,2022_Sep_20_1225,exp_builder_script,2021.2.3,59.93098958363188,
2,mirrored,Bathroom_2,0.20329417316030823,0.3077753718311152,0,1,1,1,0,7,7,4,space,0.32504899999912595,362.0139095830018,None,3,23,right,female,-0.20329417316030823,0.3077753718311152,1,-0.20555555555555555,0.32,1,0,0,3.61588812500122,stimulus,3,23,right,female,2022_Sep_20_1225,exp_builder_script,2021.2.3,59.93098958363188,
2,None,None,None,None,0,1,1,1,0,8,8,30,space,0.2835379159951117,366.36416566700063,None,3,23,right,female,None,None,1,,,,,,,,3,23,right,female,2022_Sep_20_1225,exp_builder_script,2021.2.3,59.93098958363188,
2,new,Bathroom_5,0.4339632889496993,0.08640638621500735,0,1,1,1,0,9,9,19,space,0.9074327499984065,367.06040029200085,None,3,23,right,female,0.4339632889496993,0.08640638621500735,1,0.43555555555555553,0.09666666666666666,1,0,0,1.3375845830014441,stimulus,3,23,right,female,2022_Sep_20_1225,exp_builder_script,2021.2.3,59.93098958363188,
2,original,Bathroom_6,-0.12805113141993518,0.24277517045516525,0,1,1,1,0,10,10,20,space,0.3160257069976069,369.76376320800046,None,3,23,right,female,-0.12805113141993518,0.24277517045516525,1,-0.12666666666666668,0.2477777777777778,1,0,0,8.3359838749966,stimulus,3,23,right,female,2022_Sep_20_1225,exp_builder_script,2021.2.3,59.93098958363188,
2,mirrored,Kitchen_3,-0.1047274458262859,0.19410707714476494,0,1,1,1,0,11,11,0,space,0.3792500409981585,378.8475158750007,None,3,23,right,female,0.1047274458262859,0.19410707714476494,1,0.10222222222222223,0.1988888888888889,1,0,0,4.8244335830022465,stimulus,3,23,right,female,2022_Sep_20_1225,exp_builder_script,2021.2.3,59.93098958363188,
2,new,Office_9,-0.508452733475921,0.10267075667082026,0,1,1,1,0,12,12,10,space,0.40038320799794747,384.4631280829999,None,3,23,right,female,-0.508452733475921,0.10267075667082026,0,,,,,,,,3,23,right,female,2022_Sep_20_1225,exp_builder_script,2021.2.3,59.93098958363188,
2,None,None,None,None,0,1,1,1,0,13,13,34,space,0.5260647079994669,399.89765833300044,None,3,23,right,female,None,None,0,,,,,,,,3,23,right,female,2022_Sep_20_1225,exp_builder_script,2021.2.3,59.93098958363188,
2,original,Office_8,-0.518317530311222,-0.37259024528088763,0,1,1,1,0,14,14,26,space,1.1789258739954676,400.8618201249992,None,3,23,right,female,-0.518317530311222,-0.37259024528088763,1,-0.52,-0.3655555555555556,1,0,0,2.835164165997412,stimulus,3,23,right,female,2022_Sep_20_1225,exp_builder_script,2021.2.3,59.93098958363188,
2,mirrored,Bathroom_1,-0.574962803462562,-0.2305264760510578,0,1,1,1,0,15,15,5,space,0.3832174990020576,405.31412499999715,None,3,23,right,female,0.574962803462562,-0.2305264760510578,1,0.5844444444444444,-0.21555555555555556,1,0,0,2.3435814589975053,stimulus,3,23,right,female,2022_Sep_20_1225,exp_builder_script,2021.2.3,59.93098958363188,
2,None,None,None,None,0,1,1,1,0,16,16,36,space,0.26330370800133096,408.44807641700027,None,3,23,right,female,None,None,1,,,,,,,,3,23,right,female,2022_Sep_20_1225,exp_builder_script,2021.2.3,59.93098958363188,
2,new,Bathroom_8,-0.4393979358506403,0.1068833496017414,0,1,1,1,0,17,17,14,space,0.7359831659996416,409.10742291699717,None,3,23,right,female,-0.4393979358506403,0.1068833496017414,1,-0.44,0.12,1,0,0,2.263625999999931,stimulus,3,23,right,female,2022_Sep_20_1225,exp_builder_script,2021.2.3,59.93098958363188,
2,new,Bedroom_1,0.6824079089027196,0.15253588626765377,0,1,1,1,0,18,18,17,space,0.8821571240041521,412.5480715829981,None,3,23,right,female,0.6824079089027196,0.15253588626765377,1,0.6744444444444444,0.1411111111111111,1,0,0,1.4749499160025152,stimulus,3,23,right,female,2022_Sep_20_1225,exp_builder_script,2021.2.3,59.93098958363188,
2,mirrored,Kitchen_9,0.5359790132884469,-0.3876633268990265,0,1,1,1,0,19,19,6,space,0.7122799159988062,415.34718487499777,None,3,23,right,female,-0.5359790132884469,-0.3876633268990265,1,-0.5344444444444445,-0.39111111111111113,1,0,0,3.4718494580010884,stimulus,3,23,right,female,2022_Sep_20_1225,exp_builder_script,2021.2.3,59.93098958363188,
2,mirrored,Bathroom_9,0.48529819647490463,0.16472496867031353,0,1,1,1,0,20,20,3,space,0.6760763330021291,419.9644548329961,None,3,23,right,female,-0.48529819647490463,0.16472496867031353,1,-0.48444444444444446,0.16777777777777778,1,0,0,2.3334518339979695,stimulus,3,23,right,female,2022_Sep_20_1225,exp_builder_script,2021.2.3,59.93098958363188,
2,mirrored,Bedroom_5,0.0448591774405982,-0.28355325865388037,0,1,1,1,0,21,21,9,space,0.675947540999914,423.3985386669956,None,3,23,right,female,-0.0448591774405982,-0.28355325865388037,1,-0.034444444444444444,-0.2877777777777778,1,0,0,7.402656666999974,stimulus,3,23,right,female,2022_Sep_20_1225,exp_builder_script,2021.2.3,59.93098958363188,
2,original,Bathroom_4,-0.4226860729393267,-0.09634423121097424,0,1,1,1,0,22,22,27,space,0.37098629100364633,431.9140604169952,None,3,23,right,female,-0.4226860729393267,-0.09634423121097424,1,-0.42333333333333334,-0.09333333333333334,1,0,0,1.436415374999342,stimulus,3,23,right,female,2022_Sep_20_1225,exp_builder_script,2021.2.3,59.93098958363188,
2,original,Kitchen_5,0.03100582486719361,0.3921155701010332,0,1,1,1,0,23,23,21,space,0.5557850820041494,434.16524945799756,None,3,23,right,female,0.03100582486719361,0.3921155701010332,1,0.034444444444444444,0.39,1,0,0,4.066034415998729,stimulus,3,23,right,female,2022_Sep_20_1225,exp_builder_script,2021.2.3,59.93098958363188,
2,original,Bedroom_9,-0.49309269990129767,-0.175264552890327,0,1,1,1,0,24,24,24,space,0.26987225000630133,439.21404187499866,None,3,23,right,female,-0.49309269990129767,-0.175264552890327,0,,,,,,,,3,23,right,female,2022_Sep_20_1225,exp_builder_script,2021.2.3,59.93098958363188,
2,new,Kitchen_7,-0.5292989885319821,0.16711826140103758,0,1,1,1,0,25,25,15,space,0.5921536240057321,454.531950042001,None,3,23,right,female,-0.5292989885319821,0.16711826140103758,1,-0.5344444444444445,0.17777777777777778,1,0,0,2.6053878749953583,stimulus,3,23,right,female,2022_Sep_20_1225,exp_builder_script,2021.2.3,59.93098958363188,
2,None,None,None,None,0,1,1,1,0,26,26,37,space,0.2264996660014731,458.1655293750009,None,3,23,right,female,None,None,1,,,,,,,,3,23,right,female,2022_Sep_20_1225,exp_builder_script,2021.2.3,59.93098958363188,
2,original,Bedroom_7,0.6715879372012181,-0.12458988911738106,0,1,1,1,0,27,27,29,space,1.6993696659992565,458.811369791998,None,3,23,right,female,0.6715879372012181,-0.12458988911738106,1,0.6577777777777778,-0.11777777777777777,1,0,0,2.0454028329986613,stimulus,3,23,right,female,2022_Sep_20_1225,exp_builder_script,2021.2.3,59.93098958363188,
2,mirrored,Office_2,0.08443178945114249,-0.38764351522097584,0,1,1,1,0,28,28,8,space,0.4662647069999366,462.99838087499666,None,3,23,right,female,-0.08443178945114249,-0.38764351522097584,1,-0.08444444444444445,-0.3933333333333333,1,0,0,1.0733812910038978,stimulus,3,23,right,female,2022_Sep_20_1225,exp_builder_script,2021.2.3,59.93098958363188,
2,mirrored,Bathroom_10,-0.3502743569014685,0.3798328685450328,0,1,1,1,0,29,29,1,space,0.28087904099811567,464.96491295799933,None,3,23,right,female,0.3502743569014685,0.3798328685450328,1,0.3511111111111111,0.38333333333333336,1,0,0,4.2731027499976335,stimulus,3,23,right,female,2022_Sep_20_1225,exp_builder_script,2021.2.3,59.93098958363188,
2,None,None,None,None,0,1,1,1,0,30,30,35,space,0.5171127909998177,469.93237629199575,None,3,23,right,female,None,None,1,,,,,,,,3,23,right,female,2022_Sep_20_1225,exp_builder_script,2021.2.3,59.93098958363188,
2,None,None,None,None,0,1,1,1,0,31,31,33,space,1.2380313739995472,470.8685597500007,None,3,23,right,female,None,None,1,,,,,,,,3,23,right,female,2022_Sep_20_1225,exp_builder_script,2021.2.3,59.93098958363188,
2,mirrored,Bedroom_4,0.3563961529996227,0.22685701520183518,0,1,1,1,0,32,32,2,space,1.7345534580017556,472.52899716699903,None,3,23,right,female,-0.3563961529996227,0.22685701520183518,0,,,,,,,,3,23,right,female,2022_Sep_20_1225,exp_builder_script,2021.2.3,59.93098958363188,
2,new,Office_3,-0.600726269002176,0.23604332436066144,0,1,1,1,0,33,33,11,space,0.6501220819991431,489.2992057500014,None,3,23,right,female,-0.600726269002176,0.23604332436066144,1,-0.5988888888888889,0.24888888888888888,1,0,0,11.125370374997146,stimulus,3,23,right,female,2022_Sep_20_1225,exp_builder_script,2021.2.3,59.93098958363188,
2,original,Office_5,-0.5051282258185819,-0.0257907987093709,0,1,1,1,0,34,34,23,space,0.46584129099937854,501.5163512919971,None,3,23,right,female,-0.5051282258185819,-0.0257907987093709,1,-0.5,-0.022222222222222223,1,0,0,1.4703407920023892,stimulus,3,23,right,female,2022_Sep_20_1225,exp_builder_script,2021.2.3,59.93098958363188,
2,new,Kitchen_10,-0.4110062522100986,0.04642414873101103,0,1,1,1,0,35,35,16,space,0.5950772500000312,503.9163392920018,None,3,23,right,female,-0.4110062522100986,0.04642414873101103,1,-0.4255555555555556,0.051111111111111114,1,0,0,1.6675650830002269,stimulus,3,23,right,female,2022_Sep_20_1225,exp_builder_script,2021.2.3,59.93098958363188,
2,None,None,None,None,0,1,1,1,0,36,36,38,space,0.4707125819986686,506.61646358299913,None,3,23,right,female,None,None,1,,,,,,,,3,23,right,female,2022_Sep_20_1225,exp_builder_script,2021.2.3,59.93098958363188,
2,new,Office_10,0.2928612508498568,0.12811581900648078,0,1,1,1,0,37,37,18,space,1.5419649569957983,507.52713666699856,None,3,23,right,female,0.2928612508498568,0.12811581900648078,1,0.2866666666666667,0.12111111111111111,1,0,0,1.4691667910010437,stimulus,3,23,right,female,2022_Sep_20_1225,exp_builder_script,2021.2.3,59.93098958363188,
2,None,None,None,None,0,1,1,1,0,38,38,39,space,0.9322803330069291,510.96576554200146,None,3,23,right,female,None,None,1,,,,,,,,3,23,right,female,2022_Sep_20_1225,exp_builder_script,2021.2.3,59.93098958363188,
2,original,Bedroom_2,0.19213186318918218,-0.21336005812507086,0,1,1,1,0,39,39,28,space,0.7468496660003439,512.3022102079995,None,3,23,right,female,0.19213186318918218,-0.21336005812507086,1,0.18888888888888888,-0.21,1,0,0,1.1274471249998896,stimulus,3,23,right,female,2022_Sep_20_1225,exp_builder_script,2021.2.3,59.93098958363188,
2,,,,,0,1,1,1,,,,,,,,,,23,right,female,,,,,,,,,,,3,23,right,female,2022_Sep_20_1225,exp_builder_script,2021.2.3,59.93098958363188,
